{
  "resourceType": "Bundle",
  "id": "test-bundle-valid-aspirin",
  "type": "document",
  "timestamp": "2024-01-24T10:30:00Z",
  "identifier": {
    "system": "https://gematik.de/fhir/erp/NamingSystem/GEM_ERP_NS_PrescriptionId",
    "value": "160.123.456.789.012.34"
  },
  "entry": [
    {
      "fullUrl": "urn:uuid:test-composition-123",
      "resource": {
        "resourceType": "Composition",
        "id": "test-composition-123",
        "status": "final",
        "type": {
          "coding": [
            {
              "system": "https://fhir.kbv.de/CodeSystem/KBV_CS_SFHIR_KBV_FORMULAR_ART",
              "code": "e16A"
            }
          ]
        },
        "date": "2024-01-24T10:30:00Z",
        "author": [
          {
            "reference": "Practitioner/test-practitioner-123"
          }
        ]
      }
    },
    {
      "fullUrl": "urn:uuid:test-med-request-123",
      "resource": {
        "resourceType": "MedicationRequest",
        "id": "test-med-request-123",
        "status": "active",
        "intent": "order",
        "medicationCodeableConcept": {
          "coding": [
            {
              "system": "http://fhir.de/CodeSystem/ifa/pzn",
              "code": "00285949",
              "display": "Aspirin 500mg"
            }
          ],
          "text": "Aspirin 500mg Tabletten"
        },
        "subject": {
          "reference": "Patient/test-patient-123"
        },
        "authoredOn": "2024-01-24",
        "requester": {
          "reference": "Practitioner/test-practitioner-123"
        },
        "dosageInstruction": [
          {
            "text": "1-0-1"
          }
        ],
        "dispenseRequest": {
          "quantity": {
            "value": 1,
            "code": "{Package}",
            "system": "http://unitsofmeasure.org"
          }
        },
        "substitution": {
          "allowedBoolean": true
        }
      }
    },
    {
      "fullUrl": "urn:uuid:test-patient-123",
      "resource": {
        "resourceType": "Patient",
        "id": "test-patient-123",
        "identifier": [
          {
            "type": {
              "coding": [
                {
                  "system": "http://fhir.de/CodeSystem/identifier-type-de-basis",
                  "code": "GKV"
                }
              ]
            },
            "system": "http://fhir.de/sid/gkv/kvid-10",
            "value": "X123456789"
          }
        ],
        "name": [
          {
            "use": "official",
            "family": "Mustermann",
            "given": ["Max"]
          }
        ],
        "birthDate": "1980-01-01"
      }
    },
    {
      "fullUrl": "urn:uuid:test-practitioner-123",
      "resource": {
        "resourceType": "Practitioner",
        "id": "test-practitioner-123",
        "identifier": [
          {
            "type": {
              "coding": [
                {
                  "system": "http://terminology.hl7.org/CodeSystem/v2-0203",
                  "code": "LANR"
                }
              ]
            },
            "system": "https://fhir.kbv.de/NamingSystem/KBV_NS_Base_ANR",
            "value": "123456789"
          }
        ],
        "name": [
          {
            "use": "official",
            "family": "Schmidt",
            "given": ["Dr. Anna"],
            "prefix": ["Dr."]
          }
        ]
      }
    },
    {
      "fullUrl": "urn:uuid:test-organization-123",
      "resource": {
        "resourceType": "Organization",
        "id": "test-organization-123",
        "identifier": [
          {
            "type": {
              "coding": [
                {
                  "system": "http://terminology.hl7.org/CodeSystem/v2-0203",
                  "code": "BSNR"
                }
              ]
            },
            "system": "https://fhir.kbv.de/NamingSystem/KBV_NS_Base_BSNR",
            "value": "987654321"
          }
        ],
        "name": "Arztpraxis Dr. Schmidt"
      }
    }
  ]
}
